File: DemoDataAndTemplate/CV/CV_V2O5_EC-DMC.mpt
EC-Lab ASCII FILE
Nb header lines : 59

Cyclic Voltammetry

Run on channel : 2 (SN 41453)
User :
CE vs. WE compliance from -10 V to 10 V
Electrode connection : standard
Potential control : Ewe
Ewe ctrl range : min = 0.00 V, max = 5.00 V
Safety Limits :
	Do not start on E overload
Acquisition started on : 11/16/2021 15:32:10.281
Technique started on : 11/16/2021 15:32:10.281
Loaded Setting File :  NONE
Saved on :
	File : 11142021-Li-EC-DMC-LiPF6-V2O5_CV_0_1mV_C02.mpr
	Directory : C:\Users\nsk0248\Documents\EC-Lab\Data\Shoukang\11142021-Li-V2O5_CV\
	Host : 127.0.0.1
Device : VMP3 (SN 1452)
Address : USB
EC-Lab for windows v11.42 (software)
Internet server v11.40 (firmware)
Command interpretor v11.40 (firmware)
Electrode material : Au/Pd
Initial state :
Electrolyte : NaCl (0.2M)
Comments : Fe(CN)63-/Fe(CN)64- 5.10-3 M
Reference electrode : SCE Saturated Calomel Electrode (0.241 V)
Electrode surface area : 0.001 cm²
Characteristic mass : 0.001 g
Equivalent Weight : 0.000 g/eq.
Density : 0.000 g/cm3
Volume (V) : 0.001 cm³
Cycle Definition : Charge/Discharge alternance
Ei (V)              2.600
vs.                 Ref
dE/dt               0.100
dE/dt unit          mV/s
E1 (V)              4.000
vs.                 Ref
Step percent        50
N                   10
E range min (V)     0.000
E range max (V)     5.000
I Range             Auto
I Range min         Unset
I Range max         Unset
I Range init        Unset
Bandwidth           5
E2 (V)              2.600
vs.                 Ref
nc cycles           3
Reverse Scan        0
Ef (V)              2.600
vs.                 Eoc

mode	ox/red	error	control changes	counter inc.	time/s	control/V	Ewe/V	<I>/mA	cycle number	(Q-Qo)/C	I Range	P/W
2	0	0	0	0	0.000000000000000E+000	2.60003	2.59942	-0.06759	1	0.0000000E+000	12	-0.000175695
2	0	0	1	0	165.455	2.61657	2.61597	-0.00267142	1	-0.00114273	14	-6.98835e-06
2	0	0	1	0	335.412	2.63357	2.63299	-0.00148061	1	-0.00147467	14	-3.89843e-06
2	0	0	1	0	505.369	2.65056	2.64998	-0.00100214	1	-0.00167972	14	-2.65566e-06
2	0	0	1	0	675.324	2.66756	2.66691	-0.000734692	1	-0.00182418	14	-1.95936e-06
2	0	0	1	0	845.281	2.68456	2.684	-0.00055988	1	-0.00193206	14	-1.50272e-06
2	0	0	1	0	1015.24	2.70155	2.70098	-0.000436138	1	-0.00201496	14	-1.178e-06
2	0	0	1	0	1185.19	2.71855	2.71797	-0.000342963	1	-0.00207965	14	-9.32163e-07
2	0	0	1	0	1355.15	2.73554	2.73493	-0.000269873	1	-0.00213037	14	-7.38084e-07
2	0	0	1	0	1525.11	2.75254	2.75191	-0.000211461	1	-0.00217003	14	-5.81922e-07
2	0	0	1	0	1695.06	2.76953	2.76898	-0.00016259	1	-0.0022006	14	-4.50209e-07
2	0	0	1	0	1865.02	2.78653	2.78598	-0.000121946	1	-0.00222361	14	-3.3974e-07
2	0	0	1	0	2034.97	2.80352	2.803	-8.70522e-05	1	-0.00224024	14	-2.44007e-07
2	0	0	1	0	2204.93	2.82052	2.82	-5.67347e-05	1	-0.00225135	14	-1.59992e-07
2	0	0	1	0	2374.89	2.83752	2.83699	-3.0856e-05	1	-0.00225767	14	-8.75381e-08
2	0	0	1	0	2544.84	2.85451	2.85396	-7.4781e-06	1	-0.00225985	14	-2.13422e-08
2	1	0	1	0	2714.8	2.87151	2.87095	1.34236e-05	1	-0.0022583	14	3.85385e-08
2	1	0	1	0	2884.75	2.8885	2.88793	3.20542e-05	1	-0.00225337	14	9.25703e-08
2	1	0	1	0	3054.71	2.9055	2.90495	4.88773e-05	1	-0.00224544	14	1.41986e-07
2	1	0	1	0	3224.67	2.92249	2.92191	6.47455e-05	1	-0.00223472	14	1.8918e-07
2	1	0	1	0	3394.62	2.93949	2.9389	7.90653e-05	1	-0.00222145	14	2.32365e-07
2	1	0	1	0	3564.58	2.95648	2.95595	9.25777e-05	1	-0.00220581	14	2.73655e-07
2	1	0	1	0	3734.54	2.97348	2.9729	0.000105819	1	-0.00218788	14	3.1459e-07
2	1	0	1	0	3904.49	2.99048	2.98989	0.000118567	1	-0.00216776	14	3.54502e-07
2	1	0	1	0	4074.45	3.00747	3.00689	0.0001315	1	-0.00214547	14	3.95406e-07
2	1	0	1	0	4244.4	3.02447	3.0239	0.000144271	1	-0.00212099	14	4.36261e-07
2	1	0	1	0	4414.36	3.04146	3.0409	0.000157452	1	-0.00209433	14	4.78796e-07
2	1	0	1	0	4584.32	3.05846	3.05791	0.00017147	1	-0.00206531	14	5.24338e-07
2	1	0	1	0	4754.27	3.07545	3.07489	0.000186755	1	-0.00203386	14	5.74252e-07
2	1	0	1	0	4924.23	3.09245	3.09193	0.000204319	1	-0.00199961	14	6.31741e-07
2	1	0	1	0	5094.19	3.10944	3.10889	0.000224094	1	-0.00196211	14	6.96683e-07
2	1	0	1	0	5264.14	3.12644	3.12588	0.000245823	1	-0.00192109	14	7.68415e-07
2	1	0	1	0	5434.1	3.14344	3.14289	0.00026971	1	-0.00187619	14	8.47668e-07
2	1	0	1	0	5604.05	3.16043	3.15987	0.000296311	1	-0.00182704	14	9.36304e-07
2	1	0	1	0	5774.01	3.17743	3.17691	0.000328546	1	-0.00177291	14	1.04376e-06
2	1	0	1	0	5943.97	3.19442	3.19385	0.000370618	1	-0.00171251	14	1.1837e-06
2	1	0	1	0	6113.92	3.21142	3.21086	0.000411383	1	-0.00164458	14	1.3209e-06
2	1	0	1	0	6283.88	3.22841	3.22793	0.000426991	1	-0.00157181	14	1.3783e-06
2	1	0	1	0	6453.83	3.24541	3.24488	0.000431432	1	-0.00149775	14	1.39995e-06
2	1	0	1	0	6623.79	3.26241	3.26186	0.000436726	1	-0.00142289	14	1.42454e-06
2	1	0	1	0	6793.75	3.2794	3.2789	0.000444396	1	-0.00134694	14	1.45713e-06
2	1	0	1	0	6963.7	3.2964	3.2959	0.000451947	1	-0.0012697	14	1.48957e-06
2	1	0	1	0	7133.66	3.31339	3.31288	0.000459694	1	-0.00119113	14	1.52291e-06
2	1	0	1	0	7303.61	3.33039	3.32981	0.000467175	1	-0.00111132	14	1.55561e-06
2	1	0	1	0	7473.57	3.34738	3.34692	0.000472896	1	-0.00103038	14	1.58274e-06
2	1	0	1	0	7643.53	3.36438	3.36383	0.000478662	1	-0.000948437	14	1.61014e-06
2	1	0	1	0	7813.48	3.38137	3.38084	0.000482961	1	-0.000865757	14	1.63281e-06
2	1	0	1	0	7983.44	3.39837	3.39785	0.000489833	1	-0.000782022	14	1.66438e-06
2	1	0	1	0	8153.39	3.41536	3.41488	0.000499047	1	-0.000696918	14	1.70418e-06
2	1	0	1	0	8323.35	3.43236	3.43186	0.000506561	1	-0.000610482	14	1.73845e-06
2	1	0	1	0	8493.31	3.44936	3.44886	0.000510159	1	-0.000523082	14	1.75946e-06
2	1	0	1	0	8663.26	3.46635	3.46586	0.000516168	1	-0.000434834	14	1.78896e-06
2	1	0	1	0	8833.22	3.48335	3.48284	0.000522299	1	-0.000345684	14	1.81908e-06
2	1	0	1	0	9003.18	3.50034	3.49983	0.00053325	1	-0.00025504	14	1.86628e-06
2	1	0	1	0	9173.13	3.51734	3.51682	0.000544856	1	-0.000162456	14	1.91616e-06
2	1	0	1	0	9343.09	3.53433	3.53381	0.00056132	1	-6.74994e-05	14	1.9836e-06
2	1	0	1	0	9513.04	3.55133	3.55082	0.000575915	1	3.00135e-05	14	2.04497e-06
2	1	0	1	0	9683	3.56833	3.56785	0.000590514	1	0.000129963	14	2.10687e-06
2	1	0	1	0	9852.96	3.58532	3.58486	0.0006066	1	0.000232608	14	2.17458e-06
2	1	0	1	0	10022.9	3.60232	3.6018	0.000624724	1	0.000338149	14	2.25013e-06
2	1	0	1	0	10192.9	3.61931	3.61879	0.000645202	1	0.000446933	14	2.33485e-06
2	1	0	1	0	10362.8	3.63631	3.63579	0.000665541	1	0.000559184	14	2.41976e-06
2	1	0	1	0	10532.8	3.6533	3.65278	0.000686339	1	0.000674858	14	2.50704e-06
2	1	0	1	0	10702.7	3.6703	3.6698	0.0007107	1	0.000794442	14	2.60813e-06
2	1	0	1	0	10872.7	3.68729	3.68684	0.000736619	1	0.000918267	14	2.71579e-06
2	1	0	1	0	11042.6	3.70429	3.70384	0.000758693	1	0.00104624	14	2.81008e-06
2	1	0	1	0	11212.6	3.72129	3.72082	0.000783037	1	0.00117811	14	2.91354e-06
2	1	0	1	0	11382.6	3.73828	3.73778	0.000807037	1	0.00131411	14	3.01653e-06
2	1	0	1	0	11552.5	3.75528	3.75485	0.000830064	1	0.00145405	14	3.11677e-06
2	1	0	1	0	11722.5	3.77227	3.77187	0.000853855	1	0.00159802	14	3.22063e-06
2	1	0	1	0	11892.4	3.78927	3.78885	0.000875285	1	0.00174571	14	3.31633e-06
2	1	0	1	0	12062.4	3.80626	3.80581	0.000895246	1	0.00189696	14	3.40713e-06
2	1	0	1	0	12232.3	3.82326	3.8228	0.000912001	1	0.0020512	14	3.4864e-06
2	1	0	1	0	12402.3	3.84025	3.83983	0.000935452	1	0.00220895	14	3.59198e-06
2	1	0	1	0	12572.3	3.85725	3.85684	0.000958045	1	0.00237065	14	3.69503e-06
2	1	0	1	0	12742.2	3.87425	3.87378	0.000987314	1	0.00253661	14	3.82464e-06
2	1	0	1	0	12912.2	3.89124	3.89079	0.00101801	1	0.0027077	14	3.96086e-06
2	1	0	1	0	13082.1	3.90824	3.90783	0.00105258	1	0.00288439	14	4.11331e-06
2	1	0	1	0	13252.1	3.92523	3.9248	0.00108821	1	0.00306715	14	4.27101e-06
2	1	0	1	0	13422	3.94223	3.9418	0.00112943	1	0.00325641	14	4.45199e-06
2	1	0	1	0	13592	3.95922	3.95878	0.00117093	1	0.00345257	14	4.63545e-06
2	1	0	1	0	13761.9	3.97622	3.97578	0.00121959	1	0.00365622	14	4.84881e-06
2	1	0	1	0	13931.9	3.99321	3.99279	0.00127348	1	0.00386872	14	5.08476e-06
2	1	0	1	0	14084.9	3.99142	3.99099	0.00118808	1	0.00406074	14	4.7416e-06
2	1	0	1	0	14254.8	3.97442	3.97401	0.00104828	1	0.00424944	14	4.16587e-06
2	1	0	1	0	14424.8	3.95742	3.95693	0.00093447	1	0.00441678	14	3.69764e-06
2	1	0	1	0	14594.7	3.94043	3.93997	0.000846303	1	0.00456712	14	3.33441e-06
2	1	0	1	0	14764.7	3.92343	3.92303	0.000771697	1	0.00470364	14	3.02739e-06
2	1	0	1	0	14934.6	3.90644	3.90608	0.000709886	1	0.00482862	14	2.77287e-06
2	1	0	1	0	15104.6	3.88944	3.88902	0.000658817	1	0.00494407	14	2.56215e-06
2	1	0	1	0	15274.5	3.87245	3.87199	0.000611459	1	0.0050514	14	2.36756e-06
2	1	0	1	0	15444.5	3.85545	3.85503	0.000569015	1	0.00515094	14	2.19357e-06
2	1	0	1	0	15614.4	3.83845	3.83799	0.000530845	1	0.00524361	14	2.03738e-06
2	1	0	1	0	15784.4	3.82146	3.82102	0.000491581	1	0.00532974	14	1.87834e-06
2	1	0	1	0	15954.4	3.80446	3.80402	0.000458432	1	0.00540976	14	1.74389e-06
2	1	0	1	0	16124.3	3.78747	3.78699	0.000425659	1	0.00548438	14	1.61197e-06
2	1	0	1	0	16294.3	3.77047	3.77002	0.000392767	1	0.00555302	14	1.48074e-06
2	1	0	1	0	16464.2	3.75348	3.75298	0.000357167	1	0.00561608	14	1.34044e-06
2	1	0	1	0	16634.2	3.73648	3.73602	0.000319885	1	0.0056724	14	1.1951e-06
2	1	0	1	0	16804.1	3.71949	3.71901	0.000292725	1	0.00572372	14	1.08865e-06
2	1	0	1	0	16974.1	3.70249	3.70208	0.000268447	1	0.00577067	14	9.93811e-07
2	1	0	1	0	17144	3.68549	3.68495	0.000238953	1	0.0058131	14	8.80531e-07
2	1	0	1	0	17314	3.6685	3.66799	0.000208786	1	0.00585039	14	7.65826e-07
2	1	0	1	0	17483.9	3.6515	3.65101	0.000184826	1	0.00588309	14	6.74801e-07
2	1	0	1	0	17653.9	3.63451	3.63406	0.00016273	1	0.00591184	14	5.9137e-07
2	1	0	1	0	17823.9	3.61751	3.61703	0.000138788	1	0.00593663	14	5.01999e-07
2	1	0	1	0	17993.8	3.60052	3.60002	0.000114787	1	0.00595726	14	4.13236e-07
2	1	0	1	0	18163.8	3.58352	3.58301	9.11292e-05	1	0.00597375	14	3.26516e-07
2	1	0	1	0	18333.7	3.56653	3.56601	6.9575e-05	1	0.00598651	14	2.48105e-07
2	1	0	1	0	18503.7	3.54953	3.54905	4.16431e-05	1	0.00599479	14	1.47793e-07
2	1	0	1	0	18673.6	3.53253	3.53205	1.82578e-05	1	0.00599889	14	6.44875e-08
2	1	0	1	0	18843.6	3.51554	3.51502	-6.09755e-06	1	0.00599886	14	-2.1433e-08
2	0	0	1	0	19013.5	3.49854	3.49803	-2.6175e-05	1	0.00599516	14	-9.15609e-08
2	0	0	1	0	19183.5	3.48155	3.48106	-4.81571e-05	1	0.00598788	14	-1.67638e-07
2	0	0	1	0	19353.4	3.46455	3.46406	-7.27605e-05	1	0.00597648	14	-2.52046e-07
2	0	0	1	0	19523.4	3.44756	3.44704	-9.89994e-05	1	0.00596077	14	-3.41255e-07
2	0	0	1	0	19693.3	3.43056	3.43007	-0.000128054	1	0.00594035	14	-4.39234e-07
2	0	0	1	0	19863.3	3.41357	3.41306	-0.000164925	1	0.00591433	14	-5.629e-07
2	0	0	1	0	20033.3	3.39657	3.39607	-0.000224926	1	0.00588007	14	-7.63865e-07
2	0	0	1	0	20203.2	3.37957	3.37905	-0.000271008	1	0.0058364	14	-9.15747e-07
2	0	0	1	0	20373.2	3.36258	3.36207	-0.00030355	1	0.00578596	14	-1.02056e-06
2	0	0	1	0	20543.1	3.34558	3.34504	-0.000328524	1	0.00573086	14	-1.09892e-06
2	0	0	1	0	20713.1	3.32859	3.32807	-0.000353367	1	0.00567164	14	-1.17603e-06
2	0	0	1	0	20883	3.31159	3.31105	-0.000378732	1	0.00560805	14	-1.254e-06
2	0	0	1	0	21053	3.2946	3.29411	-0.000405276	1	0.00554001	14	-1.33502e-06
2	0	0	1	0	21222.9	3.2776	3.27709	-0.000433049	1	0.00546732	14	-1.41914e-06
2	0	0	1	0	21392.9	3.26061	3.26012	-0.000462444	1	0.0053898	14	-1.50762e-06
2	0	0	1	0	21562.8	3.24361	3.24303	-0.000494391	1	0.00530699	14	-1.60333e-06
2	0	0	1	0	21732.8	3.22661	3.22608	-0.000537779	1	0.00521791	14	-1.73492e-06
2	0	0	1	0	21902.8	3.20962	3.20909	-0.000602518	1	0.00511981	14	-1.93353e-06
2	0	0	1	0	22072.7	3.19262	3.19211	-0.00067363	1	0.00500923	14	-2.1503e-06
2	0	0	1	0	22242.7	3.17563	3.17509	-0.000701918	1	0.00489024	14	-2.22865e-06
2	0	0	1	0	22412.6	3.15863	3.15809	-0.000720799	1	0.00476778	14	-2.27635e-06
2	0	0	1	0	22582.6	3.14164	3.14109	-0.000743052	1	0.00464163	14	-2.33399e-06
2	0	0	1	0	22752.5	3.12464	3.12408	-0.00075402	1	0.00451257	14	-2.35562e-06
2	0	0	1	0	22922.5	3.10765	3.10715	-0.000750919	1	0.00438289	14	-2.33321e-06
2	0	0	1	0	23092.4	3.09065	3.09011	-0.000738747	1	0.00425469	14	-2.28281e-06
2	0	0	1	0	23262.4	3.07365	3.07315	-0.000723535	1	0.00412882	14	-2.22353e-06
2	0	0	1	0	23432.3	3.05666	3.05608	-0.000705803	1	0.00400585	14	-2.15699e-06
2	0	0	1	0	23602.3	3.03966	3.03907	-0.000689527	1	0.00388576	14	-2.09552e-06
2	0	0	1	0	23772.2	3.02267	3.02216	-0.000674694	1	0.00376835	14	-2.03903e-06
2	0	0	1	0	23942.2	3.00567	3.00514	-0.000661302	1	0.00365336	14	-1.98731e-06
2	0	0	1	0	24112.2	2.98868	2.98809	-0.000652826	1	0.00354032	14	-1.9507e-06
2	0	0	1	0	24282.1	2.97168	2.97118	-0.000646145	1	0.00342861	14	-1.91981e-06
2	0	0	1	0	24452.1	2.95468	2.95412	-0.000642673	1	0.0033176	14	-1.89853e-06
2	0	0	1	0	24622	2.93769	2.93716	-0.000639738	1	0.00320714	14	-1.87901e-06
2	0	0	1	0	24792	2.92069	2.92015	-0.000637363	1	0.0030972	14	-1.86119e-06
2	0	0	1	0	24961.9	2.9037	2.90313	-0.000637533	1	0.00298734	14	-1.85084e-06
2	0	0	1	0	25131.9	2.8867	2.88617	-0.000639721	1	0.00287742	14	-1.84634e-06
2	0	0	1	0	25301.8	2.86971	2.86921	-0.000644362	1	0.00276685	14	-1.84881e-06
2	0	0	1	0	25471.8	2.85271	2.85213	-0.000649281	1	0.00265547	14	-1.85183e-06
2	0	0	1	0	25641.7	2.83572	2.83515	-0.0006557	1	0.00254314	14	-1.85901e-06
2	0	0	1	0	25811.7	2.81872	2.81814	-0.000666447	1	0.00242929	14	-1.87814e-06
2	0	0	1	0	25981.7	2.80172	2.80119	-0.000677786	1	0.00231366	14	-1.89861e-06
2	0	0	1	0	26151.6	2.78473	2.78419	-0.000687814	1	0.00219623	14	-1.915e-06
2	0	0	1	0	26321.6	2.76773	2.7672	-0.000701228	1	0.00207669	14	-1.94043e-06
2	0	0	1	0	26491.5	2.75074	2.75018	-0.000713784	1	0.00195487	14	-1.96303e-06
2	0	0	1	0	26661.5	2.73374	2.73315	-0.000725495	1	0.00183119	14	-1.98289e-06
2	0	0	1	0	26831.4	2.71675	2.71618	-0.00073861	1	0.00170529	14	-2.0062e-06
2	0	0	1	0	27001.4	2.69975	2.69918	-0.000753066	1	0.00157699	14	-2.03266e-06
2	0	0	1	0	27171.3	2.68276	2.68219	-0.000769316	1	0.00144617	14	-2.06345e-06
2	0	0	1	0	27341.3	2.66576	2.66517	-0.000787093	1	0.00131242	14	-2.09774e-06
2	0	0	1	0	27511.2	2.64876	2.6482	-0.000808321	1	0.00117536	14	-2.1406e-06
2	0	0	1	0	27681.2	2.63177	2.63118	-0.00083119	1	0.00103448	14	-2.18701e-06
2	0	0	1	0	27851.1	2.61477	2.61422	-0.000854151	1	0.000889748	14	-2.23294e-06
2	0	0	1	1	28004.1	2.60058	2.59999	-0.000800143	2	0.000756384	14	-2.08037e-06
2	0	0	1	1	28174.1	2.61757	2.61699	-0.000367152	2	0.000668667	14	-9.60833e-07
2	0	0	1	1	28344	2.63457	2.634	-0.000205416	2	0.000622864	14	-5.41064e-07
2	0	0	1	1	28514	2.65156	2.65101	-0.000108705	2	0.000598197	14	-2.88178e-07
2	0	0	1	1	28683.9	2.66856	2.66802	-4.52541e-05	2	0.000586818	14	-1.20739e-07
2	0	0	1	1	28853.9	2.68556	2.68497	5.97596e-07	2	0.000584564	14	1.60453e-09
2	1	0	1	1	29023.8	2.70255	2.70196	3.45178e-05	2	0.000588976	14	9.32656e-08
2	1	0	1	1	29193.8	2.71955	2.71898	6.04423e-05	2	0.000598456	14	1.64342e-07
2	1	0	1	1	29363.8	2.73654	2.73598	8.17367e-05	2	0.000611906	14	2.2363e-07
2	1	0	1	1	29533.7	2.75354	2.75294	9.92887e-05	2	0.000628583	14	2.73336e-07
2	1	0	1	1	29703.7	2.77053	2.76993	0.00011392	2	0.000647991	14	3.15549e-07
2	1	0	1	1	29873.6	2.78753	2.78696	0.000125943	2	0.0006697	14	3.50998e-07
2	1	0	1	1	30043.6	2.80452	2.80395	0.000137039	2	0.000693328	14	3.84251e-07
2	1	0	1	1	30213.5	2.82152	2.82095	0.000146585	2	0.000718724	14	4.13507e-07
2	1	0	1	1	30383.5	2.83852	2.83798	0.000154832	2	0.000745608	14	4.3941e-07
2	1	0	1	1	30553.5	2.85551	2.85493	0.000162363	2	0.000773829	14	4.63535e-07
2	1	0	1	1	30723.4	2.87251	2.87194	0.000169355	2	0.00080333	14	4.86377e-07
2	1	0	1	1	30893.4	2.8895	2.88895	0.000176488	2	0.000833966	14	5.09864e-07
2	1	0	1	1	31063.3	2.9065	2.90596	0.000182251	2	0.000865709	14	5.29614e-07
2	1	0	1	1	31233.3	2.92349	2.92297	0.000187287	2	0.000898351	14	5.47434e-07
2	1	0	1	1	31403.2	2.94049	2.93991	0.000193224	2	0.000931924	14	5.68062e-07
2	1	0	1	1	31573.2	2.95748	2.9569	0.000198044	2	0.000966418	14	5.85596e-07
2	1	0	1	1	31743.1	2.97448	2.97388	0.000203455	2	0.00100182	14	6.05051e-07
2	1	0	1	1	31913.1	2.99148	2.99095	0.000209018	2	0.00103815	14	6.25163e-07
2	1	0	1	1	32083.1	3.00847	3.0079	0.000213831	2	0.00107536	14	6.43183e-07
2	1	0	1	1	32253	3.02547	3.0249	0.000219057	2	0.00111342	14	6.62626e-07
2	1	0	1	1	32423	3.04246	3.04187	0.000225299	2	0.00115247	14	6.85333e-07
2	1	0	1	1	32592.9	3.05946	3.05888	0.000232736	2	0.00119271	14	7.11911e-07
2	1	0	1	1	32762.9	3.07645	3.07592	0.000241475	2	0.00123427	14	7.42759e-07
2	1	0	1	1	32932.8	3.09345	3.09287	0.000253179	2	0.00127759	14	7.83049e-07
2	1	0	1	1	33102.8	3.11044	3.10987	0.000267632	2	0.00132322	14	8.32302e-07
2	1	0	1	1	33272.8	3.12744	3.1269	0.000280483	2	0.00137118	14	8.77041e-07
2	1	0	1	1	33442.7	3.14444	3.14394	0.000293798	2	0.00142131	14	9.23684e-07
2	1	0	1	1	33612.7	3.16143	3.1609	0.000310048	2	0.00147395	14	9.80031e-07
2	1	0	1	1	33782.6	3.17843	3.1779	0.000334564	2	0.00153001	14	1.06321e-06
2	1	0	1	1	33952.6	3.19542	3.19489	0.000375172	2	0.00159155	14	1.19863e-06
2	1	0	1	1	34122.5	3.21242	3.21195	0.000410575	2	0.0016603	14	1.31874e-06
2	1	0	1	1	34292.5	3.22941	3.22892	0.000406292	2	0.00173158	14	1.31189e-06
2	1	0	1	1	34462.4	3.24641	3.24584	0.000394195	2	0.00180096	14	1.27949e-06
2	1	0	1	1	34632.4	3.2634	3.26288	0.000384179	2	0.00186847	14	1.25353e-06
2	1	0	1	1	34802.4	3.2804	3.27992	0.000378004	2	0.0019346	14	1.23982e-06
2	1	0	1	1	34972.3	3.2974	3.29688	0.000372836	2	0.00199967	14	1.22919e-06
2	1	0	1	1	35142.3	3.31439	3.31387	0.000370069	2	0.00206406	14	1.22636e-06
2	1	0	1	1	35312.2	3.33139	3.33084	0.000370064	2	0.00212816	14	1.23262e-06
2	1	0	1	1	35482.2	3.34838	3.34786	0.000370635	2	0.00219235	14	1.24083e-06
2	1	0	1	1	35652.1	3.36538	3.36487	0.000373011	2	0.00225673	14	1.25513e-06
2	1	0	1	1	35822.1	3.38237	3.3819	0.000379349	2	0.00232185	14	1.28292e-06
2	1	0	1	1	35992	3.39937	3.39883	0.000390129	2	0.00238834	14	1.32598e-06
2	1	0	1	1	36162	3.41637	3.41587	0.000408922	2	0.00245775	14	1.39682e-06
2	1	0	1	1	36332	3.43336	3.43285	0.000407328	2	0.00252851	14	1.3983e-06
2	1	0	1	1	36501.9	3.45036	3.44986	0.000403679	2	0.0025986	14	1.39263e-06
2	1	0	1	1	36671.9	3.46735	3.46686	0.000401908	2	0.00266821	14	1.39336e-06
2	1	0	1	1	36841.8	3.48435	3.48386	0.000404986	2	0.00273787	14	1.41092e-06
2	1	0	1	1	37011.8	3.50134	3.50083	0.000407611	2	0.00280799	14	1.42698e-06
2	1	0	1	1	37181.7	3.51834	3.5178	0.000412707	2	0.00287877	14	1.45182e-06
2	1	0	1	1	37351.7	3.53533	3.53483	0.00041932	2	0.00295051	14	1.48223e-06
2	1	0	1	1	37521.7	3.55233	3.55184	0.00042678	2	0.00302348	14	1.51586e-06
2	1	0	1	1	37691.6	3.56932	3.56884	0.000434503	2	0.00309768	14	1.55067e-06
2	1	0	1	1	37861.6	3.58632	3.58579	0.00044321	2	0.00317337	14	1.58926e-06
2	1	0	1	1	38031.5	3.60332	3.60287	0.000453294	2	0.00325059	14	1.63316e-06
2	1	0	1	1	38201.5	3.62031	3.61986	0.000463796	2	0.00332946	14	1.67888e-06
2	1	0	1	1	38371.4	3.63731	3.63682	0.000476998	2	0.00341038	14	1.73476e-06
2	1	0	1	1	38541.4	3.6543	3.65379	0.000489547	2	0.00349341	14	1.7887e-06
2	1	0	1	1	38711.3	3.6713	3.67083	0.000502661	2	0.00357862	14	1.84518e-06
2	1	0	1	1	38881.3	3.68829	3.68781	0.000518286	2	0.00366627	14	1.91134e-06
2	1	0	1	1	39051.3	3.70529	3.70479	0.000532977	2	0.00375661	14	1.97457e-06
2	1	0	1	1	39221.2	3.72228	3.72185	0.000545745	2	0.00384912	14	2.03118e-06
2	1	0	1	1	39391.2	3.73928	3.73884	0.000561273	2	0.00394405	14	2.09851e-06
2	1	0	1	1	39561.1	3.75628	3.75575	0.00057611	2	0.00404158	14	2.16372e-06
2	1	0	1	1	39731.1	3.77327	3.77282	0.000588537	2	0.0041414	14	2.22044e-06
2	1	0	1	1	39901	3.79027	3.78979	0.000602098	2	0.00424349	14	2.28183e-06
2	1	0	1	1	40071	3.80726	3.80679	0.000613637	2	0.00434758	14	2.33599e-06
2	1	0	1	1	40241	3.82426	3.82381	0.000625958	2	0.00445381	14	2.39354e-06
2	1	0	1	1	40410.9	3.84125	3.84078	0.000637022	2	0.00456192	14	2.44666e-06
2	1	0	1	1	40580.9	3.85825	3.85778	0.000645961	2	0.00467175	14	2.49198e-06
2	1	0	1	1	40750.8	3.87525	3.87481	0.000655875	2	0.00478322	14	2.54139e-06
2	1	0	1	1	40920.8	3.89224	3.89177	0.000666202	2	0.00489631	14	2.5927e-06
2	1	0	1	1	41090.7	3.90924	3.90877	0.000678262	2	0.00501131	14	2.65117e-06
2	1	0	1	1	41260.7	3.92623	3.9258	0.000689703	2	0.00512838	14	2.70763e-06
2	1	0	1	1	41430.6	3.94323	3.94279	0.00069975	2	0.00524719	14	2.75897e-06
2	1	0	1	1	41600.6	3.96022	3.9598	0.000711581	2	0.00536787	14	2.81772e-06
2	1	0	1	1	41770.6	3.97722	3.9768	0.000721911	2	0.00549048	14	2.8709e-06
2	1	0	1	1	41940.5	3.99421	3.99381	0.000733602	2	0.00561494	14	2.92987e-06
2	1	0	1	1	42093.5	3.99042	3.98999	0.000644089	2	0.00572234	14	2.56991e-06
2	1	0	1	1	42263.4	3.97342	3.97302	0.000537841	2	0.00582145	14	2.13685e-06
2	1	0	1	1	42433.4	3.95642	3.956	0.000458537	2	0.00590517	14	1.81397e-06
2	1	0	1	1	42603.3	3.93943	3.93901	0.000395706	2	0.00597682	14	1.55869e-06
2	1	0	1	1	42773.3	3.92243	3.922	0.000345887	2	0.006039	14	1.35657e-06
2	1	0	1	1	42943.2	3.90544	3.90495	0.000304375	2	0.00609344	14	1.18857e-06
2	1	0	1	1	43113.2	3.88844	3.888	0.000269629	2	0.00614146	14	1.04832e-06
2	1	0	1	1	43283.1	3.87145	3.87101	0.000239523	2	0.00618398	14	9.27194e-07
2	1	0	1	1	43453.1	3.85445	3.85401	0.000213699	2	0.00622176	14	8.23597e-07
2	1	0	1	1	43623.1	3.83746	3.83703	0.000190329	2	0.00625536	14	7.30297e-07
2	1	0	1	1	43793	3.82046	3.82001	0.00016968	2	0.00628521	14	6.48178e-07
2	1	0	1	1	43963	3.80346	3.803	0.00015059	2	0.0063117	14	5.72693e-07
2	1	0	1	1	44132.9	3.78647	3.78599	0.000133021	2	0.00633506	14	5.03615e-07
2	1	0	1	1	44302.9	3.76947	3.76902	0.000115983	2	0.00635547	14	4.37141e-07
2	1	0	1	1	44472.8	3.75248	3.75203	9.94521e-05	2	0.00637303	14	3.73148e-07
2	1	0	1	1	44642.8	3.73548	3.73506	8.37676e-05	2	0.00638783	14	3.12877e-07
2	1	0	1	1	44812.7	3.71849	3.71804	6.79776e-05	2	0.00639996	14	2.52743e-07
2	1	0	1	1	44982.7	3.70149	3.701	5.21758e-05	2	0.00640939	14	1.93103e-07
2	1	0	1	1	45152.6	3.6845	3.68399	3.66602e-05	2	0.00641613	14	1.35056e-07
2	1	0	1	1	45322.6	3.6675	3.66699	2.13368e-05	2	0.00642023	14	7.82419e-08
2	1	0	1	1	45492.6	3.6505	3.65003	6.19766e-06	2	0.00642172	14	2.26216e-08
2	0	0	1	1	45662.5	3.63351	3.633	-8.38148e-06	2	0.00642067	14	-3.04499e-08
2	0	0	1	1	45832.5	3.61651	3.61602	-2.14889e-05	2	0.00641723	14	-7.77041e-08
2	0	0	1	1	46002.4	3.59952	3.59905	-3.20416e-05	2	0.00641177	14	-1.15319e-07
2	0	0	1	1	46172.4	3.58252	3.58203	-4.26569e-05	2	0.00640444	14	-1.52798e-07
2	0	0	1	1	46342.3	3.56553	3.56505	-5.15165e-05	2	0.0063955	14	-1.83659e-07
2	0	0	1	1	46512.3	3.54853	3.54808	-6.22463e-05	2	0.00638483	14	-2.20855e-07
2	0	0	1	1	46682.2	3.53153	3.53105	-7.36833e-05	2	0.00637225	14	-2.60179e-07
2	0	0	1	1	46852.2	3.51454	3.51402	-8.60812e-05	2	0.00635761	14	-3.02491e-07
2	0	0	1	1	47022.1	3.49754	3.49703	-9.87447e-05	2	0.00634079	14	-3.45313e-07
2	0	0	1	1	47192.1	3.48055	3.48008	-0.000113086	2	0.00632164	14	-3.93549e-07
2	0	0	1	1	47362	3.46355	3.46301	-0.000129016	2	0.00629987	14	-4.46785e-07
2	0	0	1	1	47532	3.44656	3.44601	-0.000146684	2	0.00627527	14	-5.05474e-07
2	0	0	1	1	47702	3.42956	3.42905	-0.000169325	2	0.00624716	14	-5.80622e-07
2	0	0	1	1	47871.9	3.41257	3.41203	-0.000203696	2	0.00621427	14	-6.95016e-07
2	0	0	1	1	48041.9	3.39557	3.39508	-0.000258246	2	0.00617359	14	-8.76766e-07
2	0	0	1	1	48211.8	3.37857	3.37806	-0.000283964	2	0.00612577	14	-9.59245e-07
2	0	0	1	1	48381.8	3.36158	3.36104	-0.000305632	2	0.00607425	14	-1.02724e-06
2	0	0	1	1	48551.7	3.34458	3.34412	-0.000328175	2	0.00601898	14	-1.09745e-06
2	0	0	1	1	48721.7	3.32759	3.32706	-0.000353834	2	0.00595961	14	-1.17723e-06
2	0	0	1	1	48891.6	3.31059	3.31009	-0.000379475	2	0.00589588	14	-1.2561e-06
2	0	0	1	1	49061.6	3.2936	3.29308	-0.000406824	2	0.00582762	14	-1.33971e-06
2	0	0	1	1	49231.5	3.2766	3.27614	-0.000435929	2	0.00575458	14	-1.42816e-06
2	0	0	1	1	49401.5	3.25961	3.25906	-0.000467496	2	0.0056763	14	-1.5236e-06
2	0	0	1	1	49571.5	3.24261	3.24208	-0.000505378	2	0.00559213	14	-1.63847e-06
2	0	0	1	1	49741.4	3.22561	3.2251	-0.000554073	2	0.00550067	14	-1.78694e-06
2	0	0	1	1	49911.4	3.20862	3.20807	-0.000627763	2	0.00539896	14	-2.01391e-06
2	0	0	1	1	50081.3	3.19162	3.1911	-0.000705295	2	0.00528347	14	-2.25067e-06
2	0	0	1	1	50251.3	3.17463	3.17409	-0.000747802	2	0.00515797	14	-2.37359e-06
2	0	0	1	1	50421.2	3.15763	3.15713	-0.000783001	2	0.00502607	14	-2.47204e-06
2	0	0	1	1	50591.2	3.14064	3.14012	-0.00080602	2	0.00488906	14	-2.531e-06
2	0	0	1	1	50761.1	3.12364	3.12309	-0.000801079	2	0.00475038	14	-2.50184e-06
2	0	0	1	1	50931.1	3.10665	3.10609	-0.000767863	2	0.00461515	14	-2.38505e-06
2	0	0	1	1	51101	3.08965	3.08914	-0.000724226	2	0.00448671	14	-2.23723e-06
2	0	0	1	1	51271	3.07265	3.07215	-0.000683292	2	0.00436553	14	-2.09918e-06
2	0	0	1	1	51440.9	3.05566	3.05508	-0.000648286	2	0.00425084	14	-1.98056e-06
2	0	0	1	1	51610.9	3.03866	3.03812	-0.000621518	2	0.00414144	14	-1.88824e-06
2	0	0	1	1	51780.9	3.02167	3.02111	-0.00060063	2	0.0040361	14	-1.81457e-06
2	0	0	1	1	51950.8	3.00467	3.00406	-0.000585221	2	0.00393383	14	-1.75804e-06
2	0	0	1	1	52120.8	2.98768	2.98713	-0.000574086	2	0.00383385	14	-1.71487e-06
2	0	0	1	1	52290.7	2.97068	2.97014	-0.000565539	2	0.00373549	14	-1.67973e-06
2	0	0	1	1	52460.7	2.95369	2.95311	-0.000560499	2	0.00363829	14	-1.65522e-06
2	0	0	1	1	52630.6	2.93669	2.93611	-0.000556209	2	0.00354187	14	-1.63309e-06
2	0	0	1	1	52800.6	2.91969	2.91911	-0.000554778	2	0.00344601	14	-1.61946e-06
2	0	0	1	1	52970.5	2.9027	2.90218	-0.000554007	2	0.00335024	14	-1.60783e-06
2	0	0	1	1	53140.5	2.8857	2.88512	-0.000553985	2	0.0032546	14	-1.59831e-06
2	0	0	1	1	53310.4	2.86871	2.86813	-0.000555367	2	0.00315878	14	-1.59286e-06
2	0	0	1	1	53480.4	2.85171	2.85113	-0.000557384	2	0.00306271	14	-1.58917e-06
2	0	0	1	1	53650.4	2.83472	2.83418	-0.000562016	2	0.00296605	14	-1.59285e-06
2	0	0	1	1	53820.3	2.81772	2.81712	-0.000565531	2	0.0028687	14	-1.59317e-06
2	0	0	1	1	53990.3	2.80073	2.80018	-0.00057061	2	0.00277052	14	-1.59781e-06
2	0	0	1	1	54160.2	2.78373	2.78318	-0.00057549	2	0.00267157	14	-1.60169e-06
2	0	0	1	1	54330.2	2.76673	2.76613	-0.000581835	2	0.00257171	14	-1.60943e-06
2	0	0	1	1	54500.1	2.74974	2.74916	-0.000589876	2	0.00247054	14	-1.62166e-06
2	0	0	1	1	54670.1	2.73274	2.73212	-0.000599875	2	0.0023679	14	-1.63893e-06
2	0	0	1	1	54840	2.71575	2.71512	-0.00061094	2	0.00226342	14	-1.65878e-06
2	0	0	1	1	55010	2.69875	2.69817	-0.000623571	2	0.00215692	14	-1.6825e-06
2	0	0	1	1	55179.9	2.68176	2.68116	-0.000637637	2	0.00204816	14	-1.70961e-06
2	0	0	1	1	55349.9	2.66476	2.66418	-0.000652658	2	0.00193692	14	-1.7388e-06
2	0	0	1	1	55519.8	2.64776	2.64721	-0.000670147	2	0.00182288	14	-1.77402e-06
2	0	0	1	1	55689.8	2.63077	2.63017	-0.00068936	2	0.00170576	14	-1.81313e-06
2	0	0	1	1	55859.8	2.61377	2.61316	-0.000710372	2	0.00158519	14	-1.85632e-06
2	0	0	1	0	56012.7	2.60158	2.601	-0.000567588	3	0.00147549	14	-1.4763e-06
2	0	0	1	0	56182.7	2.61857	2.61797	-0.000198275	3	0.0014197	14	-5.19077e-07
2	0	0	1	0	56352.6	2.63557	2.63501	-6.10932e-05	3	0.0014006	14	-1.60981e-07
2	1	0	1	0	56522.6	2.65256	2.65193	1.50268e-05	3	0.00139879	14	3.985e-08
2	1	0	1	0	56692.5	2.66956	2.66901	6.28367e-05	3	0.00140719	14	1.67711e-07
2	1	0	1	0	56862.5	2.68655	2.68598	9.58309e-05	3	0.00142232	14	2.574e-07
2	1	0	1	0	57032.5	2.70355	2.70295	0.000120179	3	0.00144221	14	3.24837e-07
2	1	0	1	0	57202.4	2.72055	2.72001	0.000138695	3	0.00146568	14	3.77251e-07
2	1	0	1	0	57372.4	2.73754	2.73699	0.000153271	3	0.00149196	14	4.195e-07
2	1	0	1	0	57542.3	2.75454	2.75398	0.000165901	3	0.00152052	14	4.56889e-07
2	1	0	1	0	57712.3	2.77153	2.77099	0.00017596	3	0.00155099	14	4.87584e-07
2	1	0	1	0	57882.2	2.78853	2.78799	0.00018489	3	0.00158304	14	5.15472e-07
2	1	0	1	0	58052.2	2.80552	2.80496	0.000192931	3	0.00161652	14	5.41162e-07
2	1	0	1	0	58222.1	2.82252	2.82197	0.000199356	3	0.00165121	14	5.62576e-07
2	1	0	1	0	58392.1	2.83952	2.83895	0.000205044	3	0.00168696	14	5.82109e-07
2	1	0	1	0	58562.1	2.85651	2.85596	0.000210676	3	0.00172366	14	6.01683e-07
2	1	0	1	0	58732	2.87351	2.87296	0.000216383	3	0.00176128	14	6.21658e-07
2	1	0	1	0	58902	2.8905	2.88994	0.000220577	3	0.00179977	14	6.37454e-07
2	1	0	1	0	59071.9	2.9075	2.90694	0.000225088	3	0.00183902	14	6.54319e-07
2	1	0	1	0	59241.9	2.92449	2.92393	0.000228883	3	0.00187897	14	6.69238e-07
2	1	0	1	0	59411.8	2.94149	2.94091	0.000232957	3	0.00191959	14	6.85106e-07
2	1	0	1	0	59581.8	2.95848	2.95796	0.000237067	3	0.00196087	14	7.01235e-07
2	1	0	1	0	59751.8	2.97548	2.97497	0.00024058	3	0.00200285	14	7.15718e-07
2	1	0	1	0	59921.7	2.99248	2.99189	0.000244463	3	0.00204545	14	7.31405e-07
2	1	0	1	0	60091.7	3.00947	3.00888	0.000248894	3	0.00208876	14	7.4889e-07
2	1	0	1	0	60261.6	3.02647	3.0259	0.000253354	3	0.00213284	14	7.66622e-07
2	1	0	1	0	60431.6	3.04346	3.04292	0.000258556	3	0.00217775	14	7.86765e-07
2	1	0	1	0	60601.5	3.06046	3.05986	0.000264452	3	0.00222361	14	8.09187e-07
2	1	0	1	0	60771.5	3.07745	3.07688	0.00027153	3	0.00227058	14	8.35466e-07
2	1	0	1	0	60941.4	3.09445	3.09391	0.00028046	3	0.00231892	14	8.67718e-07
2	1	0	1	0	61111.4	3.11144	3.11087	0.00029071	3	0.00236887	14	9.04361e-07
2	1	0	1	0	61281.4	3.12844	3.12794	0.000301264	3	0.00242063	14	9.42334e-07
2	1	0	1	0	61451.3	3.14544	3.14495	0.000314918	3	0.00247446	14	9.90402e-07
2	1	0	1	0	61621.3	3.16243	3.16185	0.000333495	3	0.00253098	14	1.05446e-06
2	1	0	1	0	61791.2	3.17943	3.1789	0.000361595	3	0.00259145	14	1.14947e-06
2	1	0	1	0	61961.2	3.19642	3.19592	0.000411939	3	0.00265849	14	1.31652e-06
2	1	0	1	0	62131.1	3.21342	3.21289	0.000453148	3	0.00273426	14	1.45592e-06
2	1	0	1	0	62301.1	3.23041	3.2299	0.000446107	3	0.00281263	14	1.44088e-06
2	1	0	1	0	62471.1	3.24741	3.2469	0.000432469	3	0.00288876	14	1.40418e-06
2	1	0	1	0	62641	3.2644	3.26383	0.000419909	3	0.00296263	14	1.37051e-06
2	1	0	1	0	62811	3.2814	3.28085	0.000410277	3	0.00303459	14	1.34606e-06
2	1	0	1	0	62980.9	3.2984	3.29786	0.000400917	3	0.00310489	14	1.32217e-06
2	1	0	1	0	63150.9	3.31539	3.31482	0.000395295	3	0.00317392	14	1.31033e-06
2	1	0	1	0	63320.8	3.33239	3.33184	0.000391589	3	0.00324211	14	1.30471e-06
2	1	0	1	0	63490.8	3.34938	3.34886	0.000390489	3	0.00330989	14	1.30769e-06
2	1	0	1	0	63660.7	3.36638	3.36584	0.000391295	3	0.00337767	14	1.31703e-06
2	1	0	1	0	63830.7	3.38337	3.38289	0.000395756	3	0.00344587	14	1.3388e-06
2	1	0	1	0	64000.7	3.40037	3.39988	0.000409271	3	0.00351548	14	1.39147e-06
2	1	0	1	0	64170.6	3.41736	3.41686	0.000427897	3	0.0035885	14	1.46207e-06
2	1	0	1	0	64340.6	3.43436	3.43384	0.000418574	3	0.00366187	14	1.43732e-06
2	1	0	1	0	64510.5	3.45136	3.45085	0.000410192	3	0.00373356	14	1.41551e-06
2	1	0	1	0	64680.5	3.46835	3.46783	0.000404286	3	0.00380399	14	1.402e-06
2	1	0	1	0	64850.4	3.48535	3.48483	0.000402686	3	0.00387378	14	1.40329e-06
2	1	0	1	0	65020.4	3.50234	3.50185	0.000403168	3	0.00394343	14	1.41183e-06
2	1	0	1	0	65190.4	3.51934	3.51885	0.000404595	3	0.00401324	14	1.42371e-06
2	1	0	1	0	65360.3	3.53633	3.53585	0.000407126	3	0.00408334	14	1.43954e-06
2	1	0	1	0	65530.3	3.55333	3.55285	0.00041164	3	0.004154	14	1.46249e-06
2	1	0	1	0	65700.2	3.57032	3.56983	0.00041643	3	0.00422543	14	1.48659e-06
2	1	0	1	0	65870.2	3.58732	3.58684	0.000423047	3	0.00429782	14	1.51741e-06
2	1	0	1	0	66040.1	3.60432	3.60383	0.000430977	3	0.00437145	14	1.55317e-06
2	1	0	1	0	66210.1	3.62131	3.6208	0.000438947	3	0.00444643	14	1.58934e-06
2	1	0	1	0	66380	3.63831	3.63783	0.000447712	3	0.00452278	14	1.6287e-06
2	1	0	1	0	66550	3.6553	3.65479	0.000456788	3	0.00460062	14	1.66946e-06
2	1	0	1	0	66720	3.6723	3.67183	0.00046688	3	0.00468015	14	1.7143e-06
2	1	0	1	0	66889.9	3.68929	3.68886	0.000477194	3	0.00476133	14	1.7603e-06
2	1	0	1	0	67059.9	3.70629	3.70583	0.00048734	3	0.00484427	14	1.806e-06
2	1	0	1	0	67229.8	3.72329	3.7228	0.000496399	3	0.00492884	14	1.84799e-06
2	1	0	1	0	67399.8	3.74028	3.73981	0.000504771	3	0.00501488	14	1.88775e-06
2	1	0	1	0	67569.7	3.75728	3.75685	0.00051225	3	0.00510225	14	1.92445e-06
2	1	0	1	0	67739.7	3.77427	3.77383	0.000518055	3	0.00519066	14	1.95505e-06
2	1	0	1	0	67909.6	3.79127	3.79081	0.000524122	3	0.00528002	14	1.98685e-06
2	1	0	1	0	68079.6	3.80826	3.80782	0.000530714	3	0.00537049	14	2.02086e-06
2	1	0	1	0	68249.6	3.82526	3.82479	0.000536405	3	0.00546204	14	2.05164e-06
2	1	0	1	0	68419.5	3.84225	3.84183	0.000542358	3	0.00555455	14	2.08365e-06
2	1	0	1	0	68589.5	3.85925	3.85879	0.000548538	3	0.00564811	14	2.11669e-06
2	1	0	1	0	68759.4	3.87625	3.87582	0.000555666	3	0.00574275	14	2.15366e-06
2	1	0	1	0	68929.4	3.89324	3.89278	0.000561345	3	0.00583851	14	2.18519e-06
2	1	0	1	0	69099.3	3.91024	3.9098	0.00056958	3	0.00593542	14	2.22694e-06
2	1	0	1	0	69269.3	3.92723	3.92679	0.000576765	3	0.00603359	14	2.26484e-06
2	1	0	1	0	69439.3	3.94423	3.94381	0.000584388	3	0.00613302	14	2.30472e-06
2	1	0	1	0	69609.2	3.96122	3.96078	0.000592174	3	0.00623378	14	2.34547e-06
2	1	0	1	0	69779.2	3.97822	3.97774	0.000599002	3	0.00633575	14	2.38267e-06
2	1	0	1	0	69949.1	3.99521	3.99478	0.000609543	3	0.00643923	14	2.43499e-06
2	1	0	1	0	70102.1	3.98942	3.989	0.000526201	3	0.0065274	14	2.09901e-06
2	1	0	1	0	70272	3.97242	3.97205	0.000438296	3	0.00660815	14	1.74093e-06
2	1	0	1	0	70442	3.95542	3.955	0.000374464	3	0.0066762	14	1.481e-06
2	1	0	1	0	70611.9	3.93843	3.93797	0.000324349	3	0.00673471	14	1.27728e-06
2	1	0	1	0	70781.9	3.92143	3.92103	0.00028362	3	0.00678557	14	1.11208e-06
2	1	0	1	0	70951.8	3.90444	3.90402	0.000251656	3	0.00683023	14	9.82469e-07
2	1	0	1	0	71121.8	3.88744	3.88697	0.000224641	3	0.0068699	14	8.73172e-07
2	1	0	1	0	71291.8	3.87045	3.87006	0.000201853	3	0.00690539	14	7.81183e-07
2	1	0	1	0	71461.7	3.85345	3.85307	0.000181542	3	0.0069372	14	6.99494e-07
2	1	0	1	0	71631.7	3.83646	3.83602	0.000162903	3	0.0069657	14	6.24898e-07
2	1	0	1	0	71801.6	3.81946	3.81908	0.000146214	3	0.00699121	14	5.58403e-07
2	1	0	1	0	71971.6	3.80246	3.80201	0.000130242	3	0.00701393	14	4.95183e-07
2	1	0	1	0	72141.5	3.78547	3.78503	0.000115675	3	0.00703406	14	4.37834e-07
2	1	0	1	0	72311.5	3.76847	3.76803	0.000102156	3	0.00705179	14	3.84928e-07
2	1	0	1	0	72481.4	3.75148	3.75101	8.82456e-05	3	0.00706715	14	3.3101e-07
2	1	0	1	0	72651.4	3.73448	3.73403	7.47058e-05	3	0.00708021	14	2.78954e-07
2	1	0	1	0	72821.3	3.71749	3.71706	6.14992e-05	3	0.00709096	14	2.28596e-07
2	1	0	1	0	72991.3	3.70049	3.69999	4.782e-05	3	0.00709941	14	1.76933e-07
2	1	0	1	0	73161.3	3.6835	3.68302	3.38274e-05	3	0.00710548	14	1.24587e-07
2	1	0	1	0	73331.2	3.6665	3.66602	2.04323e-05	3	0.0071092	14	7.49052e-08
2	1	0	1	0	73501.2	3.6495	3.64898	7.01679e-06	3	0.00711064	14	2.56041e-08
2	0	0	1	0	73671.1	3.63251	3.63204	-5.87797e-06	3	0.00710982	14	-2.1349e-08
2	0	0	1	0	73841.1	3.61551	3.61508	-1.75091e-05	3	0.00710686	14	-6.32969e-08
2	0	0	1	0	74011	3.59852	3.59806	-2.89046e-05	3	0.00710193	14	-1.04e-07
2	0	0	1	0	74181	3.58152	3.58107	-4.00095e-05	3	0.00709505	14	-1.43277e-07
2	0	0	1	0	74350.9	3.56453	3.56404	-5.11816e-05	3	0.00708627	14	-1.82413e-07
2	0	0	1	0	74520.9	3.54753	3.54703	-6.1999e-05	3	0.00707558	14	-2.19912e-07
2	0	0	1	0	74690.8	3.53054	3.53011	-7.40261e-05	3	0.0070629	14	-2.61321e-07
2	0	0	1	0	74860.8	3.51354	3.51306	-8.65122e-05	3	0.00704813	14	-3.03923e-07
2	0	0	1	0	75030.7	3.49654	3.49605	-9.99672e-05	3	0.0070311	14	-3.4949e-07
2	0	0	1	0	75200.7	3.47955	3.47901	-0.000114139	3	0.00701168	14	-3.97091e-07
2	0	0	1	0	75370.7	3.46255	3.46208	-0.000130569	3	0.00698962	14	-4.52041e-07
2	0	0	1	0	75540.6	3.44556	3.44507	-0.000149716	3	0.00696449	14	-5.15783e-07
2	0	0	1	0	75710.6	3.42856	3.42804	-0.000174973	3	0.00693562	14	-5.99814e-07
2	0	0	1	0	75880.5	3.41157	3.41105	-0.000214135	3	0.00690133	14	-7.30423e-07
2	0	0	1	0	76050.5	3.39457	3.39407	-0.000275633	3	0.00685802	14	-9.35516e-07
2	0	0	1	0	76220.4	3.37758	3.37706	-0.000298312	3	0.00680751	14	-1.00742e-06
2	0	0	1	0	76390.4	3.36058	3.36007	-0.000321718	3	0.00675333	14	-1.08099e-06
2	0	0	1	0	76560.3	3.34358	3.34307	-0.000348154	3	0.0066949	14	-1.1639e-06
2	0	0	1	0	76730.3	3.32659	3.32607	-0.000376415	3	0.00663181	14	-1.25198e-06
2	0	0	1	0	76900.2	3.30959	3.30904	-0.000406361	3	0.00656375	14	-1.34467e-06
2	0	0	1	0	77070.2	3.2926	3.29208	-0.000438183	3	0.00649044	14	-1.44253e-06
2	0	0	1	0	77240.1	3.2756	3.27504	-0.000472359	3	0.00641154	14	-1.54699e-06
2	0	0	1	0	77410.1	3.25861	3.25808	-0.000511202	3	0.00632637	14	-1.66554e-06
2	0	0	1	0	77580.1	3.24161	3.24109	-0.000554866	3	0.00623414	14	-1.79837e-06
2	0	0	1	0	77750	3.22461	3.22408	-0.000611786	3	0.00613348	14	-1.97245e-06
2	0	0	1	0	77920	3.20762	3.20712	-0.000697018	3	0.00602096	14	-2.23542e-06
2	0	0	1	0	78089.9	3.19062	3.19011	-0.000789125	3	0.00589227	14	-2.51739e-06
2	0	0	1	0	78259.9	3.17363	3.17308	-0.000850216	3	0.00575095	14	-2.6978e-06
2	0	0	1	0	78429.8	3.15663	3.15609	-0.000899898	3	0.0056001	14	-2.84016e-06
2	0	0	1	0	78599.8	3.13964	3.13913	-0.00091756	3	0.00544322	14	-2.88034e-06
2	0	0	1	0	78769.7	3.12264	3.1221	-0.000878867	3	0.00528797	14	-2.74391e-06
2	0	0	1	0	78939.7	3.10565	3.10514	-0.000806128	3	0.00514292	14	-2.50314e-06
2	0	0	1	0	79109.6	3.08865	3.08813	-0.000739409	3	0.00501009	14	-2.28339e-06
2	0	0	1	0	79279.6	3.07165	3.07111	-0.000688408	3	0.0048872	14	-2.11418e-06
2	0	0	1	0	79449.6	3.05466	3.05408	-0.000649317	3	0.00477208	14	-1.98307e-06
2	0	0	1	0	79619.5	3.03766	3.03713	-0.00062212	3	0.00466243	14	-1.88946e-06
2	0	0	1	0	79789.5	3.02067	3.0201	-0.000601421	3	0.00455687	14	-1.81635e-06
2	0	0	1	0	79959.4	3.00367	3.00315	-0.000586711	3	0.00445437	14	-1.76198e-06
2	0	0	1	0	80129.4	2.98668	2.98613	-0.000580116	3	0.00435363	14	-1.7323e-06
2	0	0	1	0	80299.3	2.96968	2.96908	-0.000573555	3	0.00425383	14	-1.70293e-06
2	0	0	1	0	80469.3	2.95269	2.95211	-0.000565536	3	0.00415535	14	-1.66952e-06
2	0	0	1	0	80639.2	2.93569	2.93514	-0.000557527	3	0.00405826	14	-1.63642e-06
2	0	0	1	0	80809.2	2.91869	2.9182	-0.000550833	3	0.00396244	14	-1.60744e-06
2	0	0	1	0	80979.1	2.9017	2.90115	-0.000545033	3	0.0038676	14	-1.58122e-06
2	0	0	1	0	81149.1	2.8847	2.88414	-0.000538308	3	0.0037738	14	-1.55256e-06
2	0	0	1	0	81319	2.86771	2.86714	-0.000534769	3	0.00368094	14	-1.53326e-06
2	0	0	1	0	81489	2.85071	2.85018	-0.000533384	3	0.00358854	14	-1.52024e-06
2	0	0	1	0	81659	2.83372	2.83318	-0.000532661	3	0.00349632	14	-1.50913e-06
2	0	0	1	0	81828.9	2.81672	2.81618	-0.000534861	3	0.003404	14	-1.50626e-06
2	0	0	1	0	81998.9	2.79973	2.79919	-0.000537425	3	0.00331122	14	-1.50435e-06
2	0	0	1	0	82168.8	2.78273	2.78212	-0.000542132	3	0.00321782	14	-1.50828e-06
2	0	0	1	0	82338.8	2.76573	2.76515	-0.000548062	3	0.00312351	14	-1.51548e-06
2	0	0	1	0	82508.7	2.74874	2.74814	-0.000556276	3	0.003028	14	-1.52872e-06
2	0	0	1	0	82678.7	2.73174	2.73115	-0.000564504	3	0.0029311	14	-1.54174e-06
2	0	0	1	0	82848.6	2.71475	2.71412	-0.000576871	3	0.00283228	14	-1.5657e-06
2	0	0	1	0	83018.6	2.69775	2.69716	-0.000586608	3	0.00273177	14	-1.58218e-06
2	0	0	1	0	83188.5	2.68076	2.68023	-0.000597188	3	0.0026294	14	-1.6006e-06
2	0	0	1	0	83358.5	2.66376	2.6632	-0.000608216	3	0.00252526	14	-1.6198e-06
2	0	0	1	0	83528.5	2.64677	2.64618	-0.000625023	3	0.00241878	14	-1.65392e-06
2	0	0	1	0	83698.4	2.62977	2.62916	-0.000645627	3	0.00230907	14	-1.69746e-06
2	0	0	1	0	83868.4	2.61277	2.61218	-0.000670851	3	0.00219547	14	-1.75239e-06
2	0	0	1	1	84021.3	2.60258	2.60202	-0.00045865	4	0.00209405	14	-1.19342e-06
2	0	0	1	1	84191.3	2.61957	2.61905	-0.000127708	4	0.00205248	14	-3.34475e-07
2	0	0	1	1	84361.2	2.63657	2.63602	-5.13405e-06	4	0.00204415	14	-1.35334e-08
2	1	0	1	1	84531.2	2.65356	2.65296	6.03922e-05	4	0.00205101	14	1.60218e-07
2	1	0	1	1	84701.1	2.67056	2.66999	0.000101527	4	0.00206662	14	2.71075e-07
2	1	0	1	1	84871.1	2.68755	2.687	0.000129664	4	0.00208798	14	3.48409e-07
2	1	0	1	1	85041.1	2.70455	2.704	0.000149672	4	0.00211339	14	4.04713e-07
2	1	0	1	1	85211	2.72155	2.72099	0.00016651	4	0.00214182	14	4.53073e-07
2	1	0	1	1	85381	2.73854	2.73799	0.000178661	4	0.00217276	14	4.89173e-07
2	1	0	1	1	85550.9	2.75554	2.75496	0.000190523	4	0.0022057	14	5.24884e-07
2	1	0	1	1	85720.9	2.77253	2.77192	0.000199466	4	0.00224035	14	5.52906e-07
2	1	0	1	1	85890.8	2.78953	2.78896	0.000207604	4	0.00227648	14	5.78999e-07
2	1	0	1	1	86060.8	2.80652	2.80599	0.000215732	4	0.00231395	14	6.05341e-07
2	1	0	1	1	86230.8	2.82352	2.82293	0.000222843	4	0.0023527	14	6.29071e-07
2	1	0	1	1	86400.7	2.84051	2.83995	0.000227923	4	0.0023925	14	6.47289e-07
2	1	0	1	1	86570.7	2.85751	2.85695	0.000233034	4	0.00243319	14	6.65767e-07
2	1	0	1	1	86740.6	2.87451	2.87396	0.000238644	4	0.00247475	14	6.85853e-07
2	1	0	1	1	86910.6	2.8915	2.89091	0.000245382	4	0.0025174	14	7.09377e-07
2	1	0	1	1	87080.5	2.9085	2.90793	0.00025111	4	0.00256114	14	7.30212e-07
2	1	0	1	1	87250.5	2.92549	2.92491	0.000256924	4	0.00260583	14	7.5148e-07
2	1	0	1	1	87420.4	2.94249	2.94195	0.000260562	4	0.00265135	14	7.66559e-07
2	1	0	1	1	87590.4	2.95948	2.95888	0.000265517	4	0.00269756	14	7.85631e-07
2	1	0	1	1	87760.4	2.97648	2.97596	0.000270174	4	0.00274455	14	8.04027e-07
2	1	0	1	1	87930.3	2.99348	2.99296	0.00027488	4	0.00279236	14	8.22704e-07
2	1	0	1	1	88100.3	3.01047	3.00993	0.000279044	4	0.00284096	14	8.39903e-07
2	1	0	1	1	88270.2	3.02747	3.02695	0.000284197	4	0.00289032	14	8.6025e-07
2	1	0	1	1	88440.2	3.04446	3.04391	0.000290757	4	0.00294072	14	8.85037e-07
2	1	0	1	1	88610.1	3.06146	3.06095	0.000298497	4	0.00299227	14	9.13686e-07
2	1	0	1	1	88780.1	3.07845	3.07792	0.000306441	4	0.0030452	14	9.43201e-07
2	1	0	1	1	88950.1	3.09545	3.09494	0.00031665	4	0.00309968	14	9.80012e-07
2	1	0	1	1	89120	3.11244	3.11191	0.000330517	4	0.00315632	14	1.02854e-06
2	1	0	1	1	89290	3.12944	3.1289	0.00034544	4	0.00321541	14	1.08085e-06
2	1	0	1	1	89459.9	3.14644	3.14591	0.000362765	4	0.0032772	14	1.14123e-06
2	1	0	1	1	89629.9	3.16343	3.16291	0.000388064	4	0.00334247	14	1.22741e-06
2	1	0	1	1	89799.8	3.18043	3.17992	0.0004262	4	0.00341299	14	1.35528e-06
2	1	0	1	1	89969.8	3.19742	3.19693	0.000490358	4	0.00349225	14	1.56764e-06
2	1	0	1	1	90139.7	3.21442	3.2139	0.000543428	4	0.00358261	14	1.74652e-06
2	1	0	1	1	90309.7	3.23141	3.23086	0.00053921	4	0.00367676	14	1.74211e-06
2	1	0	1	1	90479.7	3.24841	3.24792	0.000520292	4	0.00376841	14	1.68987e-06
2	1	0	1	1	90649.6	3.2654	3.26486	0.000503265	4	0.003857	14	1.64309e-06
2	1	0	1	1	90819.6	3.2824	3.28192	0.000486701	4	0.00394265	14	1.59732e-06
2	1	0	1	1	90989.5	3.2994	3.29889	0.000472822	4	0.00402569	14	1.55979e-06
2	1	0	1	1	91159.5	3.31639	3.31585	0.000459939	4	0.00410644	14	1.52509e-06
2	1	0	1	1	91329.4	3.33339	3.33285	0.000450868	4	0.00418529	14	1.50268e-06
2	1	0	1	1	91499.4	3.35038	3.34985	0.000444321	4	0.00426286	14	1.48841e-06
2	1	0	1	1	91669.3	3.36738	3.36687	0.000439535	4	0.00433936	14	1.47986e-06
2	1	0	1	1	91839.3	3.38437	3.38387	0.000439565	4	0.00441543	14	1.48743e-06
2	1	0	1	1	92009.3	3.40137	3.40087	0.000451397	4	0.00449235	14	1.53514e-06
2	1	0	1	1	92179.2	3.41836	3.41788	0.000466946	4	0.00457262	14	1.59597e-06
2	1	0	1	1	92349.2	3.43536	3.43488	0.000448181	4	0.00465198	14	1.53945e-06
2	1	0	1	1	92519.1	3.45236	3.45186	0.00043242	4	0.00472811	14	1.49265e-06
2	1	0	1	1	92689.1	3.46935	3.46886	0.000421728	4	0.004802	14	1.46291e-06
2	1	0	1	1	92859	3.48635	3.48586	0.000414873	4	0.00487437	14	1.44619e-06
2	1	0	1	1	93029	3.50334	3.50289	0.000411771	4	0.00494585	14	1.44239e-06
2	1	0	1	1	93199	3.52034	3.51983	0.000409744	4	0.0050169	14	1.44223e-06
2	1	0	1	1	93368.9	3.53733	3.53687	0.000409156	4	0.00508766	14	1.44713e-06
2	1	0	1	1	93538.9	3.55433	3.55384	0.000411154	4	0.00515856	14	1.46118e-06
2	1	0	1	1	93708.8	3.57132	3.5708	0.000414355	4	0.00522977	14	1.47958e-06
2	1	0	1	1	93878.8	3.58832	3.58786	0.000418173	4	0.00530172	14	1.50034e-06
2	1	0	1	1	94048.7	3.60532	3.60489	0.000422762	4	0.00537432	14	1.52401e-06
2	1	0	1	1	94218.7	3.62231	3.62186	0.000426311	4	0.00544753	14	1.54404e-06
2	1	0	1	1	94388.6	3.63931	3.63883	0.000429755	4	0.00552141	14	1.56381e-06
2	1	0	1	1	94558.6	3.6563	3.65585	0.000434636	4	0.00559585	14	1.58897e-06
2	1	0	1	1	94728.6	3.6733	3.67283	0.000442168	4	0.00567138	14	1.62401e-06
2	1	0	1	1	94898.5	3.69029	3.6899	0.000448758	4	0.00574807	14	1.65587e-06
2	1	0	1	1	95068.5	3.70729	3.70683	0.000454107	4	0.00582575	14	1.6833e-06
2	1	0	1	1	95238.4	3.72428	3.72383	0.000459681	4	0.00590433	14	1.71177e-06
2	1	0	1	1	95408.4	3.74128	3.74082	0.00046281	4	0.00598375	14	1.73129e-06
2	1	0	1	1	95578.3	3.75828	3.7578	0.000466236	4	0.00606364	14	1.75202e-06
2	1	0	1	1	95748.3	3.77527	3.77481	0.000469959	4	0.00614412	14	1.77401e-06
2	1	0	1	1	95918.3	3.79227	3.79182	0.00047291	4	0.00622517	14	1.79319e-06
2	1	0	1	1	96088.2	3.80926	3.80882	0.000474742	4	0.00630661	14	1.80821e-06
2	1	0	1	1	96258.2	3.82626	3.82587	0.000478529	4	0.00638846	14	1.83079e-06
2	1	0	1	1	96428.1	3.84325	3.84283	0.000483261	4	0.00647106	14	1.85709e-06
2	1	0	1	1	96598.1	3.86025	3.85982	0.000488516	4	0.00655441	14	1.88558e-06
2	1	0	1	1	96768	3.87724	3.87676	0.000493345	4	0.00663876	14	1.91258e-06
2	1	0	1	1	96938	3.89424	3.89382	0.000498294	4	0.00672379	14	1.94027e-06
2	1	0	1	1	97107.9	3.91124	3.9108	0.000503698	4	0.00680975	14	1.96986e-06
2	1	0	1	1	97277.9	3.92823	3.92786	0.000512123	4	0.00689686	14	2.01155e-06
2	1	0	1	1	97447.9	3.94523	3.9448	0.0005203	4	0.00698541	14	2.05248e-06
2	1	0	1	1	97617.8	3.96222	3.96178	0.000527527	4	0.00707525	14	2.08994e-06
2	1	0	1	1	97787.8	3.97922	3.97881	0.000534918	4	0.00716635	14	2.12834e-06
2	1	0	1	1	97957.7	3.99621	3.99584	0.000544777	4	0.00725885	14	2.17684e-06
2	1	0	1	1	98110.7	3.98842	3.98797	0.000459261	4	0.0073362	14	1.83152e-06
2	1	0	1	1	98280.6	3.97142	3.97105	0.000382216	4	0.00740655	14	1.5178e-06
2	1	0	1	1	98450.6	3.95443	3.95397	0.000324738	4	0.00746563	14	1.284e-06
2	1	0	1	1	98620.5	3.93743	3.93701	0.000283878	4	0.00751645	14	1.11763e-06
2	1	0	1	1	98790.5	3.92043	3.92	0.000250302	4	0.00756105	14	9.81185e-07
2	1	0	1	1	98960.5	3.90344	3.90303	0.000222494	4	0.00760041	14	8.68401e-07
2	1	0	1	1	99130.4	3.88644	3.88601	0.000199457	4	0.00763544	14	7.75094e-07
2	1	0	1	1	99300.4	3.86945	3.86902	0.000180121	4	0.00766694	14	6.96892e-07
2	1	0	1	1	99470.3	3.85245	3.852	0.00016211	4	0.0076952	14	6.24447e-07
2	1	0	1	1	99640.3	3.83546	3.83502	0.000145163	4	0.00772049	14	5.56701e-07
2	1	0	1	1	99810.2	3.81846	3.81806	0.000130508	4	0.00774316	14	4.98286e-07
2	1	0	1	1	99980.2	3.80146	3.80098	0.000116741	4	0.00776337	14	4.43732e-07
2	1	0	1	1	100150	3.78447	3.78401	0.000103429	4	0.00778129	14	3.91377e-07
2	1	0	1	1	100320	3.76747	3.76703	9.09057e-05	4	0.007797	14	3.42444e-07
2	1	0	1	1	100490	3.75048	3.75003	7.84045e-05	4	0.00781055	14	2.94019e-07
2	1	0	1	1	100660	3.73348	3.73302	6.61682e-05	4	0.00782199	14	2.47007e-07
2	1	0	1	1	100830	3.71649	3.71601	5.28431e-05	4	0.00783122	14	1.96366e-07
2	1	0	1	1	101000	3.69949	3.69902	4.05435e-05	4	0.0078383	14	1.49971e-07
2	1	0	1	1	101170	3.6825	3.68203	2.73077e-05	4	0.00784317	14	1.00548e-07
2	1	0	1	1	101340	3.6655	3.66501	1.39887e-05	4	0.00784574	14	5.12687e-08
2	1	0	1	1	101510	3.6485	3.64802	7.80781e-07	4	0.00784606	14	2.8483e-09
2	0	0	1	1	101680	3.63151	3.63102	-1.14556e-05	4	0.00784414	14	-4.15954e-08
2	0	0	1	1	101850	3.61451	3.61405	-2.31924e-05	4	0.00784011	14	-8.38186e-08
2	0	0	1	1	102020	3.59752	3.59701	-3.43382e-05	4	0.00783422	14	-1.23515e-07
2	0	0	1	1	102190	3.58052	3.58	-4.60869e-05	4	0.00782629	14	-1.64991e-07
2	0	0	1	1	102360	3.56353	3.56302	-5.72541e-05	4	0.00781639	14	-2.03998e-07
2	0	0	1	1	102529	3.54653	3.54606	-6.89416e-05	4	0.00780452	14	-2.44471e-07
2	0	0	1	1	102699	3.52954	3.52909	-8.12256e-05	4	0.00779061	14	-2.86652e-07
2	0	0	1	1	102869	3.51254	3.51203	-9.43595e-05	4	0.0077745	14	-3.31394e-07
2	0	0	1	1	103039	3.49554	3.49504	-0.000107654	4	0.00775614	14	-3.76255e-07
2	0	0	1	1	103209	3.47855	3.47806	-0.000121648	4	0.00773538	14	-4.23099e-07
2	0	0	1	1	103379	3.46155	3.46108	-0.000138537	4	0.00771196	14	-4.7949e-07
2	0	0	1	1	103549	3.44456	3.44403	-0.000159548	4	0.0076853	14	-5.49488e-07
2	0	0	1	1	103719	3.42756	3.42708	-0.000187086	4	0.0076545	14	-6.41159e-07
2	0	0	1	1	103889	3.41057	3.4101	-0.000232633	4	0.00761763	14	-7.93303e-07
2	0	0	1	1	104059	3.39357	3.39309	-0.000299331	4	0.00757035	14	-1.01566e-06
2	0	0	1	1	104229	3.37657	3.3761	-0.000321591	4	0.00751594	14	-1.08572e-06
2	0	0	1	1	104399	3.35958	3.35903	-0.000347092	4	0.0074576	14	-1.16589e-06
2	0	0	1	1	104569	3.34258	3.34206	-0.000377301	4	0.00739451	14	-1.26096e-06
2	0	0	1	1	104739	3.32559	3.32509	-0.000409202	4	0.00732609	14	-1.36063e-06
2	0	0	1	1	104909	3.30859	3.30809	-0.000443045	4	0.00725207	14	-1.46563e-06
2	0	0	1	1	105079	3.2916	3.29108	-0.00048065	4	0.00717189	14	-1.58186e-06
2	0	0	1	1	105249	3.2746	3.27404	-0.000522651	4	0.00708491	14	-1.71118e-06
2	0	0	1	1	105419	3.25761	3.25703	-0.000569197	4	0.00699051	14	-1.85389e-06
2	0	0	1	1	105589	3.24061	3.24008	-0.000618743	4	0.00688796	14	-2.00478e-06
2	0	0	1	1	105759	3.22362	3.22311	-0.000683371	4	0.00677576	14	-2.20258e-06
2	0	0	1	1	105929	3.20662	3.20615	-0.000778089	4	0.00665025	14	-2.49467e-06
2	0	0	1	1	106099	3.18962	3.18912	-0.000880374	4	0.00650697	14	-2.80762e-06
2	0	0	1	1	106268	3.17263	3.17208	-0.000953239	4	0.00634911	14	-3.02375e-06
2	0	0	1	1	106438	3.15563	3.15509	-0.00101059	4	0.00617984	14	-3.1885e-06
2	0	0	1	1	106608	3.13864	3.1381	-0.00101736	4	0.00600466	14	-3.19257e-06
2	0	0	1	1	106778	3.12164	3.12112	-0.000946192	4	0.00583531	14	-2.95318e-06
2	0	0	1	1	106948	3.10465	3.10414	-0.000847722	4	0.00568115	14	-2.63145e-06
2	0	0	1	1	107118	3.08765	3.08709	-0.000774015	4	0.00554195	14	-2.38945e-06
2	0	0	1	1	107288	3.07066	3.0701	-0.000721015	4	0.00541351	14	-2.21359e-06
2	0	0	1	1	107458	3.05366	3.05315	-0.000683715	4	0.00529242	14	-2.08749e-06
2	0	0	1	1	107628	3.03666	3.0361	-0.000652905	4	0.00517722	14	-1.98228e-06
2	0	0	1	1	107798	3.01967	3.01912	-0.000628482	4	0.00506672	14	-1.89746e-06
2	0	0	1	1	107968	3.00267	3.0021	-0.000607219	4	0.00496005	14	-1.82293e-06
2	0	0	1	1	108138	2.98568	2.98513	-0.000588415	4	0.00485672	14	-1.7565e-06
2	0	0	1	1	108308	2.96868	2.9681	-0.000574463	4	0.00475633	14	-1.70506e-06
2	0	0	1	1	108478	2.95169	2.95113	-0.000559503	4	0.00465825	14	-1.65116e-06
2	0	0	1	1	108648	2.93469	2.93409	-0.000548199	4	0.00456243	14	-1.60846e-06
2	0	0	1	1	108818	2.91769	2.91713	-0.000539302	4	0.00446833	14	-1.57321e-06
2	0	0	1	1	108988	2.9007	2.90013	-0.000530152	4	0.00437579	14	-1.53751e-06
2	0	0	1	1	109158	2.8837	2.88314	-0.000523449	4	0.00428456	14	-1.50918e-06
2	0	0	1	1	109328	2.86671	2.86617	-0.000519329	4	0.0041943	14	-1.48849e-06
2	0	0	1	1	109498	2.84971	2.84917	-0.000516088	4	0.00410469	14	-1.47042e-06
2	0	0	1	1	109668	2.83272	2.83215	-0.00051417	4	0.00401547	14	-1.45621e-06
2	0	0	1	1	109838	2.81572	2.81518	-0.000515511	4	0.00392631	14	-1.45126e-06
2	0	0	1	1	110007	2.79873	2.79816	-0.000517812	4	0.00383683	14	-1.44892e-06
2	0	0	1	1	110177	2.78173	2.78118	-0.000524063	4	0.00374666	14	-1.45752e-06
2	0	0	1	1	110347	2.76473	2.76416	-0.000529607	4	0.00365545	14	-1.46392e-06
2	0	0	1	1	110517	2.74774	2.74716	-0.000535896	4	0.00356324	14	-1.47219e-06
2	0	0	1	1	110687	2.73074	2.7302	-0.000545428	4	0.00346965	14	-1.48913e-06
2	0	0	1	1	110857	2.71375	2.71317	-0.000554904	4	0.00337446	14	-1.50555e-06
2	0	0	1	1	111027	2.69675	2.69621	-0.000566213	4	0.00327741	14	-1.52663e-06
2	0	0	1	1	111197	2.67976	2.67918	-0.00057882	4	0.00317837	14	-1.55076e-06
2	0	0	1	1	111367	2.66276	2.66215	-0.000593198	4	0.0030771	14	-1.57918e-06
2	0	0	1	1	111537	2.64577	2.64518	-0.000609935	4	0.00297309	14	-1.61339e-06
2	0	0	1	1	111707	2.62877	2.62816	-0.000627814	4	0.00286613	14	-1.65e-06
2	0	0	1	1	111877	2.61177	2.61115	-0.000648229	4	0.00275593	14	-1.69262e-06
2	0	0	1	1	111994	2.60003	2.59942	-0.00066702	4	0.00267769	14	-1.73386e-06